%% logfile from robot Freja (4)
% Freja (4)
%  1    time 0.000 sec
%  2  3 Motor voltage [V] left, right: 3.00 3.00
%  4  5 Motor current left, right [A]: 0.135 0.132
%  6  7 Wheel velocity [m/s] left, right: 0.0000 0.0000
0.000 3.00 3.00 0.005 0.008 0.0000 0.0000 
0.001 3.00 3.00 0.277 0.026 0.0000 0.0000 
0.002 3.00 3.00 0.472 0.262 0.0000 0.0000 
0.003 3.00 3.00 0.644 0.529 0.0000 0.0000 
0.004 3.00 3.00 0.699 0.675 0.0000 0.0000 
0.005 3.00 3.00 0.721 0.765 0.0000 0.0000 
0.006 3.00 3.00 0.732 0.824 0.0000 0.0000 
0.007 3.00 3.00 0.893 0.838 0.0973 0.0000 
0.008 3.00 3.00 0.807 0.844 0.0973 0.0000 
0.009 3.00 3.00 0.871 0.836 0.0973 0.1693 
0.010 3.00 3.00 0.794 0.833 0.1827 0.1693 
0.011 3.00 3.00 0.775 0.775 0.2251 0.2246 
0.012 3.00 3.00 0.675 0.652 0.2251 0.2246 
0.013 3.00 3.00 0.851 0.674 0.2601 0.2599 
0.014 3.00 3.00 0.813 0.661 0.2860 0.2841 
0.015 3.00 3.00 0.874 0.642 0.2860 0.3097 
0.016 3.00 3.00 0.675 0.627 0.3066 0.3097 
0.017 3.00 3.00 0.768 0.595 0.3259 0.3351 
0.018 3.00 3.00 0.589 0.566 0.3515 0.3644 
0.019 3.00 3.00 0.570 0.563 0.3786 0.3817 
0.020 3.00 3.00 0.724 0.550 0.3927 0.3980 
0.021 3.00 3.00 0.627 0.495 0.4051 0.4173 
0.022 3.00 3.00 0.568 0.445 0.4244 0.4324 
0.023 3.00 3.00 0.614 0.475 0.4400 0.4382 
0.024 3.00 3.00 0.642 0.499 0.4521 0.4624 
0.025 3.00 3.00 0.640 0.501 0.4561 0.4851 
0.026 3.00 3.00 0.478 0.474 0.4693 0.4904 
0.027 3.00 3.00 0.421 0.470 0.4971 0.5002 
0.028 3.00 3.00 0.445 0.481 0.5040 0.5057 
0.029 3.00 3.00 0.361 0.430 0.5197 0.5266 
0.030 3.00 3.00 0.383 0.404 0.5340 0.5348 
0.031 3.00 3.00 0.338 0.392 0.5365 0.5470 
0.032 3.00 3.00 0.535 0.372 0.5442 0.5664 
0.033 3.00 3.00 0.604 0.346 0.5642 0.5694 
0.034 3.00 3.00 0.619 0.320 0.5668 0.5881 
0.035 3.00 3.00 0.440 0.346 0.5786 0.5897 
0.036 3.00 3.00 0.364 0.362 0.5885 0.6060 
0.037 3.00 3.00 0.448 0.343 0.5997 0.6098 
0.038 3.00 3.00 0.512 0.340 0.6147 0.6190 
0.039 3.00 3.00 0.511 0.362 0.6209 0.6282 
0.040 3.00 3.00 0.345 0.334 0.6358 0.6403 
0.041 3.00 3.00 0.282 0.305 0.6415 0.6378 
0.042 3.00 3.00 0.276 0.280 0.6457 0.6530 
0.043 3.00 3.00 0.286 0.256 0.6489 0.6568 
0.044 3.00 3.00 0.467 0.241 0.6467 0.6692 
0.045 3.00 3.00 0.345 0.229 0.6567 0.6718 
0.046 3.00 3.00 0.299 0.270 0.6647 0.6783 
0.047 3.00 3.00 0.231 0.282 0.6666 0.6852 
0.048 3.00 3.00 0.392 0.272 0.6833 0.6868 
0.049 3.00 3.00 0.259 0.293 0.6861 0.6994 
0.050 3.00 3.00 0.277 0.286 0.6924 0.6847 
0.051 3.00 3.00 0.247 0.261 0.6965 0.6636 
0.052 3.00 3.00 0.219 0.267 0.7040 0.6397 
0.053 3.00 3.00 0.195 0.268 0.7151 0.6405 
0.054 3.00 3.00 0.255 0.274 0.7159 0.6586 
0.055 3.00 3.00 0.319 0.287 0.7269 0.6565 
0.056 3.00 3.00 0.276 0.301 0.7277 0.6659 
0.057 3.00 3.00 0.184 0.276 0.7429 0.6750 
0.058 3.00 3.00 0.189 0.286 0.7435 0.6870 
0.059 3.00 3.00 0.357 0.304 0.7494 0.6889 
0.060 3.00 3.00 0.388 0.281 0.7547 0.6928 
0.061 3.00 3.00 0.412 0.270 0.7572 0.7075 
0.062 3.00 3.00 0.179 0.249 0.7685 0.7087 
0.063 3.00 3.00 0.188 0.240 0.7674 0.7199 
0.064 3.00 3.00 0.202 0.254 0.7723 0.7196 
0.065 3.00 3.00 0.118 0.256 0.7734 0.7309 
0.066 3.00 3.00 0.141 0.240 0.7697 0.7347 
0.067 3.00 3.00 0.180 0.234 0.7738 0.7335 
0.068 3.00 3.00 0.146 0.233 0.7718 0.7507 
0.069 3.00 3.00 0.189 0.194 0.7765 0.7438 
0.070 3.00 3.00 0.333 0.156 0.7859 0.7538 
0.071 3.00 3.00 0.373 0.164 0.7846 0.7539 
0.072 3.00 3.00 0.356 0.200 0.7882 0.7580 
0.073 3.00 3.00 0.364 0.210 0.7909 0.7622 
0.074 3.00 3.00 0.344 0.206 0.7979 0.7649 
0.075 3.00 3.00 0.194 0.188 0.7979 0.7732 
0.076 3.00 3.00 0.158 0.220 0.8026 0.7900 
0.077 3.00 3.00 0.123 0.209 0.8007 0.7809 
0.078 3.00 3.00 0.086 0.183 0.8086 0.7819 
0.079 3.00 3.00 0.178 0.170 0.8094 0.7874 
0.080 3.00 3.00 0.201 0.187 0.8129 0.7937 
0.081 3.00 3.00 0.138 0.199 0.8160 0.7926 
0.082 3.00 3.00 0.124 0.199 0.8217 0.8001 
0.083 3.00 3.00 0.293 0.162 0.8222 0.8017 
0.084 3.00 3.00 0.178 0.170 0.8272 0.8068 
0.085 3.00 3.00 0.158 0.185 0.8274 0.8049 
0.086 3.00 3.00 0.078 0.177 0.8321 0.8100 
0.087 3.00 3.00 0.280 0.139 0.8324 0.8133 
0.088 3.00 3.00 0.201 0.142 0.8358 0.8163 
0.089 3.00 3.00 0.076 0.162 0.8373 0.8183 
0.090 3.00 3.00 0.090 0.173 0.8400 0.8226 
0.091 3.00 3.00 0.106 0.167 0.8416 0.8231 
0.092 3.00 3.00 0.055 0.183 0.8436 0.8247 
0.093 3.00 3.00 0.089 0.172 0.8454 0.8272 
0.094 3.00 3.00 0.109 0.134 0.8465 0.8309 
0.095 3.00 3.00 0.156 0.105 0.8482 0.8311 
0.096 3.00 3.00 0.165 0.110 0.8492 0.8337 
0.097 3.00 3.00 0.083 0.107 0.8504 0.8344 
0.098 3.00 3.00 0.110 0.130 0.8513 0.8356 
0.099 3.00 3.00 0.300 0.100 0.8529 0.8381 
0.100 3.00 3.00 0.331 0.148 0.8540 0.8396 
0.101 3.00 3.00 0.285 0.145 0.8554 0.8430 
0.102 3.00 3.00 0.334 0.129 0.8532 0.8442 
0.103 3.00 3.00 0.184 0.122 0.8525 0.8456 
0.104 3.00 3.00 0.080 0.134 0.8514 0.8473 
0.105 3.00 3.00 0.084 0.148 0.8536 0.8480 
0.106 3.00 3.00 0.104 0.133 0.8544 0.8518 
0.107 3.00 3.00 0.154 0.121 0.8573 0.8533 
0.108 3.00 3.00 0.167 0.124 0.8568 0.8520 
0.109 3.00 3.00 0.116 0.112 0.8607 0.8526 
0.110 3.00 3.00 0.273 0.088 0.8578 0.8560 
0.111 3.00 3.00 0.174 0.092 0.8621 0.8579 
0.112 3.00 3.00 0.257 0.118 0.8633 0.8593 
0.113 3.00 3.00 0.097 0.129 0.8648 0.8625 
0.114 3.00 3.00 0.134 0.108 0.8672 0.8618 
0.115 3.00 3.00 0.087 0.104 0.8664 0.8628 
0.116 3.00 3.00 0.047 0.107 0.8686 0.8638 
0.117 3.00 3.00 0.071 0.091 0.8710 0.8667 
0.118 3.00 3.00 0.112 0.086 0.8700 0.8669 
0.119 3.00 3.00 0.174 0.094 0.8718 0.8698 
0.120 3.00 3.00 0.204 0.102 0.8724 0.8679 
0.121 3.00 3.00 0.149 0.103 0.8730 0.8707 
0.122 3.00 3.00 0.142 0.097 0.8737 0.8700 
0.123 3.00 3.00 0.090 0.107 0.8739 0.8715 
0.124 3.00 3.00 0.224 0.114 0.8774 0.8748 
0.125 3.00 3.00 0.284 0.095 0.8791 0.8742 
0.126 3.00 3.00 0.144 0.091 0.8837 0.8761 
0.127 3.00 3.00 0.219 0.114 0.8814 0.8743 
0.128 3.00 3.00 0.266 0.109 0.8860 0.8768 
0.129 3.00 3.00 0.146 0.096 0.8855 0.8780 
0.130 3.00 3.00 0.058 0.107 0.8854 0.8797 
0.131 3.00 3.00 0.063 0.114 0.8872 0.8774 
0.132 3.00 3.00 0.092 0.095 0.8867 0.8793 
0.133 3.00 3.00 0.246 0.095 0.8882 0.8809 
0.134 3.00 3.00 0.102 0.097 0.8887 0.8834 
0.135 3.00 3.00 0.067 0.123 0.8883 0.8812 
0.136 3.00 3.00 0.065 0.099 0.8902 0.8820 
0.137 3.00 3.00 0.252 0.084 0.8886 0.8833 
0.138 3.00 3.00 0.139 0.098 0.8896 0.8835 
0.139 3.00 3.00 0.210 0.088 0.8886 0.8862 
0.140 3.00 3.00 0.116 0.068 0.8879 0.8857 
0.141 3.00 3.00 0.082 0.074 0.8911 0.8880 
0.142 3.00 3.00 0.189 0.118 0.8908 0.8864 
0.143 3.00 3.00 0.139 0.122 0.8906 0.8874 
0.144 3.00 3.00 0.088 0.110 0.8899 0.8875 
0.145 3.00 3.00 0.108 0.137 0.8892 0.8887 
0.146 3.00 3.00 0.200 0.127 0.8903 0.8892 
0.147 3.00 3.00 0.191 0.109 0.8913 0.8897 
0.148 3.00 3.00 0.250 0.091 0.8907 0.8900 
0.149 3.00 3.00 0.263 0.102 0.8863 0.8885 
0.150 3.00 3.00 0.123 0.081 0.8859 0.8915 
0.151 3.00 3.00 0.094 0.070 0.8843 0.8915 
0.152 3.00 3.00 0.271 0.088 0.8849 0.8930 
0.153 3.00 3.00 0.118 0.110 0.8859 0.8896 
0.154 3.00 3.00 0.163 0.110 0.8855 0.8918 
0.155 3.00 3.00 0.292 0.081 0.8866 0.8936 
0.156 3.00 3.00 0.105 0.091 0.8860 0.8947 
0.157 3.00 3.00 0.181 0.108 0.8876 0.8941 
0.158 3.00 3.00 0.280 0.083 0.8895 0.8933 
0.159 3.00 3.00 0.172 0.080 0.8880 0.8937 
0.160 3.00 3.00 0.235 0.076 0.8895 0.8938 
0.161 3.00 3.00 0.097 0.046 0.8943 0.8958 
0.162 3.00 3.00 0.086 0.050 0.8943 0.8905 
0.163 3.00 3.00 0.222 0.066 0.8961 0.8959 
0.164 3.00 3.00 0.059 0.099 0.8954 0.8926 
0.165 3.00 3.00 0.217 0.110 0.8958 0.8939 
0.166 3.00 3.00 0.162 0.099 0.8962 0.8936 
0.167 3.00 3.00 0.257 0.117 0.8946 0.8945 
0.168 3.00 3.00 0.101 0.111 0.8954 0.8963 
0.169 3.00 3.00 0.261 0.069 0.8962 0.8948 
0.170 3.00 3.00 0.297 0.065 0.8999 0.8946 
0.171 3.00 3.00 0.229 0.080 0.9002 0.8930 
0.172 3.00 3.00 0.084 0.101 0.8992 0.8952 
0.173 3.00 3.00 0.125 0.096 0.9008 0.8953 
0.174 3.00 3.00 0.081 0.098 0.8955 0.8909 
0.175 3.00 3.00 0.192 0.110 0.8975 0.8939 
0.176 3.00 3.00 0.116 0.074 0.8994 0.8943 
0.177 3.00 3.00 0.265 0.058 0.8998 0.8962 
0.178 3.00 3.00 0.084 0.085 0.9001 0.8972 
0.179 3.00 3.00 0.185 0.109 0.8997 0.8971 
0.180 3.00 3.00 0.097 0.097 0.8990 0.8941 
0.181 3.00 3.00 0.103 0.085 0.9008 0.8936 
0.182 3.00 3.00 0.056 0.091 0.8991 0.8932 
0.183 3.00 3.00 0.101 0.062 0.9000 0.8942 
0.184 3.00 3.00 0.179 0.029 0.8992 0.8953 
0.185 3.00 3.00 0.084 0.058 0.8997 0.8943 
0.186 3.00 3.00 0.158 0.102 0.8986 0.8947 
0.187 3.00 3.00 0.114 0.091 0.8988 0.8960 
0.188 3.00 3.00 0.158 0.093 0.8979 0.8971 
0.189 3.00 3.00 0.082 0.110 0.8946 0.8967 
0.190 3.00 3.00 0.043 0.112 0.8991 0.8966 
0.191 3.00 3.00 0.202 0.091 0.8998 0.8974 
0.192 3.00 3.00 0.253 0.088 0.9010 0.8979 
0.193 3.00 3.00 0.087 0.084 0.9008 0.8959 
0.194 3.00 3.00 0.086 0.085 0.9031 0.9004 
0.195 3.00 3.00 0.217 0.066 0.9034 0.9013 
0.196 3.00 3.00 0.083 0.091 0.9026 0.8979 
0.197 3.00 3.00 0.060 0.091 0.9047 0.8987 
0.198 3.00 3.00 0.139 0.068 0.9032 0.9003 
0.199 3.00 3.00 0.075 0.048 0.9038 0.9006 
0.200 3.00 3.00 0.187 0.075 0.8996 0.8999 
0.201 3.00 3.00 0.180 0.087 0.8973 0.9039 
0.202 3.00 3.00 0.293 0.061 0.8952 0.8999 
0.203 3.00 3.00 0.142 0.080 0.8921 0.9012 
0.204 3.00 3.00 0.231 0.050 0.8946 0.9009 
0.205 3.00 3.00 0.135 0.043 0.8952 0.9015 
0.206 3.00 3.00 0.082 0.038 0.8945 0.8996 
0.207 3.00 3.00 0.042 0.074 0.8945 0.9010 
0.208 3.00 3.00 0.051 0.080 0.8949 0.9014 
0.209 3.00 3.00 0.137 0.091 0.8938 0.9007 
0.210 3.00 3.00 0.071 0.099 0.8945 0.9022 
0.211 3.00 3.00 0.085 0.113 0.8941 0.9036 
0.212 3.00 3.00 0.109 0.088 0.8943 0.9023 
0.213 3.00 3.00 0.250 0.077 0.8992 0.9021 
0.214 3.00 3.00 0.082 0.107 0.8976 0.9021 
0.215 3.00 3.00 0.048 0.110 0.8996 0.9031 
0.216 3.00 3.00 0.054 0.079 0.8988 0.9038 
0.217 3.00 3.00 0.265 0.072 0.8989 0.9051 
0.218 3.00 3.00 0.097 0.088 0.8976 0.8997 
0.219 3.00 3.00 0.236 0.088 0.8993 0.9019 
0.220 3.00 3.00 0.130 0.075 0.9001 0.9034 
0.221 3.00 3.00 0.215 0.076 0.9006 0.9042 
0.222 3.00 3.00 0.095 0.094 0.9009 0.9040 
0.223 3.00 3.00 0.076 0.087 0.9023 0.9014 
0.224 3.00 3.00 0.245 0.069 0.9013 0.9058 
0.225 3.00 3.00 0.138 0.089 0.9025 0.9033 
0.226 3.00 3.00 0.063 0.077 0.9015 0.9053 
0.227 3.00 3.00 0.267 0.062 0.9006 0.9037 
0.228 3.00 3.00 0.266 0.068 0.9048 0.9065 
0.229 3.00 3.00 0.075 0.076 0.9021 0.9032 
0.230 3.00 3.00 0.259 0.068 0.9028 0.9046 
0.231 3.00 3.00 0.132 0.062 0.9003 0.9033 
0.232 3.00 3.00 0.171 0.090 0.8992 0.9038 
0.233 3.00 3.00 0.089 0.090 0.9007 0.9035 
0.234 3.00 3.00 0.060 0.081 0.9016 0.9040 
0.235 3.00 3.00 0.258 0.072 0.9060 0.9044 
0.236 3.00 3.00 0.219 0.100 0.9053 0.9039 
0.237 3.00 3.00 0.242 0.099 0.9039 0.9063 
0.238 3.00 3.00 0.172 0.086 0.9055 0.9072 
0.239 3.00 3.00 0.244 0.103 0.9042 0.9043 
0.240 3.00 3.00 0.082 0.123 0.9030 0.9027 
0.241 3.00 3.00 0.231 0.100 0.9037 0.9048 
0.242 3.00 3.00 0.165 0.076 0.9048 0.9059 
0.243 3.00 3.00 0.193 0.113 0.9042 0.9055 
0.244 3.00 3.00 0.189 0.113 0.9045 0.9085 
0.245 3.00 3.00 0.183 0.083 0.9028 0.9043 
0.246 3.00 3.00 0.106 0.078 0.9046 0.9065 
0.247 3.00 3.00 0.014 0.102 0.9027 0.9053 
0.248 3.00 3.00 0.247 0.075 0.9045 0.9063 
0.249 3.00 3.00 0.099 0.061 0.9025 0.9046 
0.250 3.00 3.00 0.196 0.073 0.9027 0.9032 
0.251 3.00 3.00 0.185 0.091 0.9016 0.9033 
0.252 3.00 3.00 0.092 0.073 0.9012 0.9057 
0.253 3.00 3.00 0.128 0.081 0.9022 0.9053 
0.254 3.00 3.00 0.090 0.076 0.8957 0.9053 
0.255 3.00 3.00 0.210 0.087 0.8940 0.9058 
0.256 3.00 3.00 0.304 0.086 0.8941 0.9060 
0.257 3.00 3.00 0.273 0.106 0.8952 0.9062 
0.258 3.00 3.00 0.032 0.122 0.8911 0.9049 
0.259 3.00 3.00 0.026 0.104 0.8967 0.9079 
0.260 3.00 3.00 0.078 0.079 0.8977 0.9074 
0.261 3.00 3.00 0.048 0.101 0.8966 0.9039 
0.262 3.00 3.00 0.110 0.075 0.8977 0.9057 
0.263 3.00 3.00 0.048 0.042 0.8982 0.9067 
0.264 3.00 3.00 0.209 0.073 0.8985 0.9078 
0.265 3.00 3.00 0.086 0.107 0.8970 0.9070 
0.266 3.00 3.00 0.038 0.106 0.8983 0.9064 
0.267 3.00 3.00 0.048 0.091 0.8954 0.9070 
0.268 3.00 3.00 0.018 0.106 0.8979 0.9038 
0.269 3.00 3.00 0.150 0.076 0.8980 0.9091 
0.270 3.00 3.00 0.253 0.031 0.8986 0.9065 
0.271 3.00 3.00 0.132 0.052 0.8975 0.9101 
0.272 3.00 3.00 0.096 0.062 0.8902 0.9055 
0.273 3.00 3.00 0.059 0.083 0.8980 0.9064 
0.274 3.00 3.00 0.117 0.095 0.8966 0.9056 
0.275 3.00 3.00 0.265 0.105 0.8981 0.9047 
0.276 3.00 3.00 0.048 0.121 0.8965 0.9057 
0.277 3.00 3.00 0.196 0.103 0.8979 0.9063 
0.278 3.00 3.00 0.078 0.094 0.9005 0.9074 
0.279 3.00 3.00 0.025 0.104 0.9006 0.9057 
0.280 3.00 3.00 0.181 0.108 0.9023 0.9086 
0.281 3.00 3.00 0.257 0.082 0.9010 0.9093 
0.282 3.00 3.00 0.126 0.091 0.8979 0.9066 
0.283 3.00 3.00 0.105 0.102 0.9022 0.9057 
0.284 3.00 3.00 0.069 0.042 0.9013 0.9070 
0.285 3.00 3.00 0.096 0.042 0.9020 0.9083 
0.286 3.00 3.00 0.085 0.077 0.9018 0.9077 
0.287 3.00 3.00 0.159 0.098 0.9022 0.9107 
0.288 3.00 3.00 0.279 0.074 0.9037 0.9086 
0.289 3.00 3.00 0.104 0.080 0.8995 0.9073 
0.290 3.00 3.00 0.056 0.076 0.9024 0.9072 
0.291 3.00 3.00 0.226 0.053 0.9027 0.9084 
0.292 3.00 3.00 0.082 0.037 0.9011 0.9069 
0.293 3.00 3.00 0.088 0.068 0.9033 0.9047 
0.294 3.00 3.00 0.070 0.060 0.9008 0.9085 
0.295 3.00 3.00 0.003 0.076 0.9006 0.9078 
0.296 3.00 3.00 0.210 0.096 0.8993 0.9078 
0.297 3.00 3.00 0.086 0.121 0.8990 0.9073 
0.298 3.00 3.00 0.176 0.100 0.9001 0.9082 
0.299 3.00 3.00 0.287 0.061 0.9006 0.9075 
0.300 3.00 3.00 0.081 0.068 0.9034 0.9080 
0.301 3.00 3.00 0.169 0.080 0.9046 0.9072 
0.302 3.00 3.00 0.063 0.075 0.9034 0.9094 
0.303 3.00 3.00 0.069 0.080 0.9042 0.9104 
0.304 3.00 3.00 0.154 0.118 0.9037 0.9056 
0.305 3.00 3.00 0.038 0.104 0.9055 0.9067 
0.306 3.00 3.00 0.252 0.080 0.9030 0.9083 
0.307 3.00 3.00 0.193 0.090 0.9040 0.9090 
0.308 3.00 3.00 0.215 0.107 0.9043 0.9088 
0.309 3.00 3.00 0.089 0.093 0.9031 0.9044 
0.310 3.00 3.00 0.242 0.058 0.9028 0.9102 
0.311 3.00 3.00 0.113 0.088 0.9043 0.9088 
0.312 3.00 3.00 0.063 0.074 0.9027 0.9100 
0.313 3.00 3.00 0.114 0.046 0.9036 0.9081 
0.314 3.00 3.00 0.059 0.042 0.9025 0.9105 
0.315 3.00 3.00 0.014 0.076 0.9031 0.9068 
0.316 3.00 3.00 -0.023 0.085 0.9017 0.9080 
0.317 3.00 3.00 0.205 0.075 0.9014 0.9074 
0.318 3.00 3.00 0.062 0.112 0.9030 0.9077 
0.319 3.00 3.00 0.109 0.114 0.9009 0.9071 
0.320 3.00 3.00 0.215 0.080 0.9021 0.9070 
0.321 3.00 3.00 0.157 0.076 0.9034 0.9086 
0.322 3.00 3.00 0.044 0.059 0.9043 0.9068 
0.323 3.00 3.00 0.023 0.070 0.9032 0.9106 
0.324 3.00 3.00 0.029 0.053 0.8993 0.9109 
0.325 3.00 3.00 0.072 0.087 0.8979 0.9075 
0.326 3.00 3.00 0.010 0.102 0.8974 0.9068 
0.327 3.00 3.00 -0.005 0.072 0.8971 0.9077 
0.328 3.00 3.00 0.150 0.060 0.8981 0.9086 
0.329 3.00 3.00 0.010 0.065 0.8984 0.9083 
0.330 3.00 3.00 0.023 0.101 0.8971 0.9110 
0.331 3.00 3.00 0.062 0.070 0.8996 0.9086 
0.332 3.00 3.00 0.055 0.086 0.8972 0.9081 
0.333 3.00 3.00 -0.018 0.089 0.8983 0.9074 
0.334 3.00 3.00 0.008 0.064 0.8974 0.9058 
0.335 3.00 3.00 0.195 0.061 0.8983 0.9080 
0.336 3.00 3.00 0.075 0.084 0.8988 0.9075 
0.337 3.00 3.00 0.029 0.087 0.8984 0.9086 
0.338 3.00 3.00 -0.007 0.065 0.8976 0.9089 
0.339 3.00 3.00 0.218 0.076 0.8972 0.9085 
0.340 3.00 3.00 0.081 0.088 0.8997 0.9099 
0.341 3.00 3.00 0.002 0.078 0.8972 0.9088 
0.342 3.00 3.00 0.073 0.065 0.9003 0.9084 
0.343 3.00 3.00 0.257 0.091 0.9048 0.9094 
0.344 3.00 3.00 0.061 0.114 0.9066 0.9093 
0.345 3.00 3.00 0.059 0.102 0.9054 0.9097 
0.346 3.00 3.00 0.263 0.084 0.9074 0.9109 
0.347 3.00 3.00 0.082 0.110 0.9068 0.9060 
0.348 3.00 3.00 -0.012 0.095 0.9074 0.9079 
0.349 3.00 3.00 0.039 0.063 0.9064 0.9087 
0.350 3.00 3.00 0.017 0.084 0.9058 0.9094 
0.351 3.00 3.00 0.049 0.122 0.9063 0.9045 
0.352 3.00 3.00 0.169 0.114 0.9061 0.9087 
0.353 3.00 3.00 0.105 0.084 0.9076 0.9088 
0.354 3.00 3.00 0.262 0.091 0.9065 0.9080 
0.355 3.00 3.00 0.292 0.020 0.9048 0.9097 
0.356 3.00 3.00 0.263 0.001 0.9056 0.9086 
0.357 3.00 3.00 0.278 0.041 0.9044 0.9063 
0.358 3.00 3.00 0.110 0.105 0.9044 0.9072 
0.359 3.00 3.00 0.022 0.110 0.9027 0.9097 
0.360 3.00 3.00 0.017 0.100 0.9031 0.9084 
0.361 3.00 3.00 0.100 0.128 0.8988 0.9085 
0.362 3.00 3.00 0.052 0.110 0.9025 0.9078 
0.363 3.00 3.00 0.075 0.076 0.9035 0.9074 
0.364 3.00 3.00 0.233 0.077 0.9040 0.9065 
0.365 3.00 3.00 0.068 0.103 0.9053 0.9079 
0.366 3.00 3.00 0.075 0.098 0.9064 0.9105 
0.367 3.00 3.00 0.064 0.050 0.9064 0.9101 
0.368 3.00 3.00 0.084 0.088 0.9038 0.9043 
0.369 3.00 3.00 0.040 0.087 0.9009 0.9081 
0.370 3.00 3.00 0.140 0.075 0.9021 0.9085 
0.371 3.00 3.00 0.259 0.072 0.9027 0.9091 
0.372 3.00 3.00 0.075 0.107 0.9022 0.9084 
0.373 3.00 3.00 0.187 0.113 0.8991 0.9097 
0.374 3.00 3.00 0.254 0.091 0.9019 0.9082 
0.375 3.00 3.00 0.280 0.106 0.8996 0.9085 
0.376 3.00 3.00 0.196 0.088 0.9021 0.9055 
0.377 3.00 3.00 0.085 0.048 0.9022 0.9089 
0.378 3.00 3.00 0.069 0.041 0.8993 0.9106 
0.379 3.00 3.00 0.222 0.065 0.9016 0.9081 
0.380 3.00 3.00 0.083 0.093 0.8895 0.9090 
0.381 3.00 3.00 0.216 0.074 0.9005 0.9095 
0.382 3.00 3.00 0.279 0.103 0.8996 0.9085 
0.383 3.00 3.00 0.154 0.129 0.9003 0.9110 
0.384 3.00 3.00 0.069 0.090 0.8989 0.9094 
0.385 3.00 3.00 0.059 0.069 0.8980 0.9085 
0.386 3.00 3.00 0.235 0.088 0.9036 0.9082 
0.387 3.00 3.00 0.036 0.095 0.9027 0.9093 
0.388 3.00 3.00 0.198 0.069 0.9036 0.9099 
0.389 3.00 3.00 0.128 0.083 0.9048 0.9115 
0.390 3.00 3.00 0.225 0.095 0.9033 0.9061 
0.391 3.00 3.00 0.096 0.076 0.9036 0.9087 
0.392 3.00 3.00 0.132 0.061 0.8996 0.9092 
0.393 3.00 3.00 0.223 0.064 0.9045 0.9096 
0.394 3.00 3.00 0.063 0.100 0.9043 0.9093 
0.395 3.00 3.00 0.014 0.085 0.9032 0.9089 
0.396 3.00 3.00 0.060 0.084 0.9022 0.9079 
0.397 3.00 3.00 0.219 0.099 0.9035 0.9070 
0.398 3.00 3.00 0.109 0.076 0.9024 0.9097 
0.399 3.00 3.00 0.043 0.051 0.9037 0.9086 
0.400 3.00 3.00 0.058 0.076 0.9021 0.9070 
0.401 3.00 3.00 0.073 0.074 0.9033 0.9055 
0.402 3.00 3.00 0.209 0.077 0.9028 0.9106 
0.403 3.00 3.00 0.272 0.081 0.9023 0.9071 
0.404 3.00 3.00 0.149 0.113 0.9009 0.9102 
0.405 3.00 3.00 0.094 0.104 0.9005 0.9071 
0.406 3.00 3.00 0.087 0.080 0.9017 0.9086 
0.407 3.00 3.00 0.132 0.062 0.9034 0.9074 
0.408 3.00 3.00 0.239 0.100 0.9038 0.9097 
0.409 3.00 3.00 0.209 0.100 0.9057 0.9124 
0.410 3.00 3.00 0.085 0.074 0.9013 0.9120 
0.411 3.00 3.00 0.109 0.106 0.9070 0.9088 
0.412 3.00 3.00 0.155 0.087 0.9064 0.9095 
0.413 3.00 3.00 0.071 0.050 0.9080 0.9094 
0.414 3.00 3.00 0.223 0.059 0.9062 0.9096 
0.415 3.00 3.00 0.265 0.090 0.9074 0.9105 
0.416 3.00 3.00 0.098 0.083 0.9069 0.9078 
0.417 3.00 3.00 0.204 0.069 0.9082 0.9101 
0.418 3.00 3.00 0.265 0.088 0.9041 0.9096 
0.419 3.00 3.00 0.179 0.086 0.9059 0.9100 
0.420 3.00 3.00 0.040 0.049 0.9064 0.9105 
0.421 3.00 3.00 0.237 0.053 0.9068 0.9126 
0.422 3.00 3.00 0.274 0.082 0.9057 0.9092 
0.423 3.00 3.00 0.236 0.062 0.9064 0.9099 
0.424 3.00 3.00 0.242 0.067 0.9054 0.9093 
0.425 3.00 3.00 0.107 0.114 0.9043 0.9102 
0.426 3.00 3.00 0.089 0.122 0.9051 0.9109 
0.427 3.00 3.00 0.208 0.091 0.9034 0.9110 
0.428 3.00 3.00 0.136 0.076 0.9042 0.9113 
0.429 3.00 3.00 0.100 0.088 0.9072 0.9088 
0.430 3.00 3.00 0.195 0.084 0.9065 0.9088 
0.431 3.00 3.00 0.091 0.076 0.9082 0.9122 
0.432 3.00 3.00 0.122 0.083 0.9071 0.9085 
0.433 3.00 3.00 0.254 0.076 0.9029 0.9093 
0.434 3.00 3.00 0.260 0.076 0.9082 0.9106 
0.435 3.00 3.00 0.094 0.061 0.9064 0.9108 
0.436 3.00 3.00 0.122 0.091 0.9067 0.9115 
0.437 3.00 3.00 0.030 0.112 0.8968 0.9139 
0.438 3.00 3.00 0.167 0.103 0.8985 0.9108 
0.439 3.00 3.00 0.280 0.107 0.9004 0.9108 
0.440 3.00 3.00 0.122 0.101 0.8975 0.9095 
0.441 3.00 3.00 0.231 0.058 0.8997 0.9107 
0.442 3.00 3.00 0.092 0.038 0.8986 0.9097 
0.443 3.00 3.00 0.080 0.072 0.8990 0.9050 
0.444 3.00 3.00 0.088 0.084 0.8991 0.9103 
0.445 3.00 3.00 0.174 0.083 0.8957 0.9099 
0.446 3.00 3.00 0.147 0.092 0.8997 0.9099 
0.447 3.00 3.00 0.191 0.111 0.8978 0.9112 
0.448 3.00 3.00 0.241 0.099 0.8966 0.8934 
0.449 3.00 3.00 0.085 0.076 0.8981 0.9105 
0.450 3.00 3.00 0.076 0.080 0.8986 0.9104 
0.451 3.00 3.00 0.107 0.107 0.8977 0.9067 
0.452 3.00 3.00 0.201 0.095 0.9022 0.9131 
0.453 3.00 3.00 0.066 0.087 0.9016 0.9121 
0.454 3.00 3.00 0.087 0.120 0.9028 0.9073 
0.455 3.00 3.00 0.083 0.098 0.8991 0.9097 
0.456 3.00 3.00 0.055 0.073 0.9035 0.9100 
0.457 3.00 3.00 0.221 0.078 0.9012 0.9123 
0.458 3.00 3.00 0.294 0.101 0.9022 0.9112 
0.459 3.00 3.00 0.094 0.074 0.9023 0.9098 
0.460 3.00 3.00 0.039 0.069 0.9028 0.9106 
0.461 3.00 3.00 0.083 0.083 0.9007 0.9096 
0.462 3.00 3.00 0.086 0.068 0.9027 0.9115 
0.463 3.00 3.00 0.200 0.043 0.9012 0.9097 
0.464 3.00 3.00 0.247 0.049 0.9027 0.9122 
0.465 3.00 3.00 0.113 0.079 0.9015 0.9090 
0.466 3.00 3.00 0.052 0.097 0.9016 0.9093 
0.467 3.00 3.00 0.028 0.081 0.9015 0.9086 
0.468 3.00 3.00 0.208 0.114 0.8977 0.9095 
0.469 3.00 3.00 0.127 0.114 0.9029 0.9059 
0.470 3.00 3.00 0.075 0.100 0.9000 0.9080 
0.471 3.00 3.00 0.087 0.093 0.9009 0.9124 
0.472 3.00 3.00 0.113 0.093 0.9022 0.9090 
0.473 3.00 3.00 0.101 0.106 0.9053 0.9122 
0.474 3.00 3.00 0.085 0.097 0.9061 0.9125 
0.475 3.00 3.00 0.052 0.102 0.9046 0.9092 
0.476 3.00 3.00 0.233 0.112 0.9042 0.9076 
0.477 3.00 3.00 0.086 0.085 0.9044 0.9114 
0.478 3.00 3.00 0.054 0.065 0.9040 0.9109 
0.479 3.00 3.00 0.121 0.094 0.9048 0.9105 
0.480 3.00 3.00 0.054 0.098 0.9054 0.9143 
0.481 3.00 3.00 0.156 0.084 0.9030 0.9089 
0.482 3.00 3.00 0.229 0.093 0.9051 0.9108 
0.483 3.00 3.00 0.291 0.093 0.9039 0.9102 
0.484 3.00 3.00 0.272 0.067 0.9044 0.9109 
0.485 3.00 3.00 0.274 0.047 0.9032 0.9098 
0.486 3.00 3.00 0.187 0.080 0.9053 0.9097 
0.487 3.00 3.00 0.222 0.091 0.9027 0.9106 
0.488 3.00 3.00 0.205 0.071 0.9039 0.9103 
0.489 3.00 3.00 0.113 0.091 0.9028 0.9107 
0.490 3.00 3.00 0.255 0.122 0.9017 0.9122 
0.491 3.00 3.00 0.257 0.105 0.9018 0.9106 
0.492 3.00 3.00 0.077 0.074 0.9022 0.9092 
0.493 3.00 3.00 0.259 0.077 0.9022 0.9110 
0.494 3.00 3.00 0.113 0.091 0.9053 0.9110 
0.495 3.00 3.00 0.033 0.072 0.9042 0.9118 
0.496 3.00 3.00 0.047 0.088 0.9047 0.9130 
0.497 3.00 3.00 0.255 0.112 0.9059 0.9048 
0.498 3.00 3.00 0.072 0.102 0.9053 0.9111 
0.499 3.00 3.00 0.093 0.073 0.9021 0.9108 
0.500 3.00 3.00 0.040 0.072 0.9043 0.9115 
0.501 6.00 6.00 0.131 0.106 0.9046 0.9115 
0.502 6.00 6.00 0.215 0.097 0.9053 0.9120 
0.503 6.00 6.00 0.482 0.342 0.9116 0.9192 
0.504 6.00 6.00 0.676 0.579 0.9294 0.9333 
0.505 6.00 6.00 0.965 0.688 0.9528 0.9627 
0.506 6.00 6.00 0.915 0.736 0.9667 0.9837 
0.507 6.00 6.00 0.904 0.702 0.9901 1.0006 
0.508 6.00 6.00 0.836 0.697 1.0055 1.0311 
0.509 6.00 6.00 0.779 0.736 1.0350 1.0565 
0.510 6.00 6.00 0.945 0.769 1.0670 1.0755 
0.511 6.00 6.00 0.796 0.714 1.0805 1.1000 
0.512 6.00 6.00 0.998 0.692 1.1045 1.1294 
0.513 6.00 6.00 0.856 0.662 1.1320 1.1444 
0.514 6.00 6.00 0.719 0.635 1.1484 1.1685 
0.515 6.00 6.00 0.671 0.648 1.1523 1.1905 
0.516 6.00 6.00 0.724 0.652 1.1828 1.1994 
0.517 6.00 6.00 0.703 0.613 1.2040 1.2160 
0.518 6.00 6.00 0.718 0.607 1.2136 1.2328 
0.519 6.00 6.00 0.837 0.541 1.2348 1.2342 
0.520 6.00 6.00 0.678 0.575 1.2589 1.2426 
0.521 6.00 6.00 0.685 0.626 1.2790 1.2509 
0.522 6.00 6.00 0.623 0.558 1.3014 1.2673 
0.523 6.00 6.00 0.669 0.537 1.3079 1.2952 
0.524 6.00 6.00 0.666 0.475 1.3136 1.3064 
0.525 6.00 6.00 0.591 0.503 1.3199 1.3255 
0.526 6.00 6.00 0.619 0.531 1.3381 1.3318 
0.527 6.00 6.00 0.553 0.525 1.3530 1.3445 
0.528 6.00 6.00 0.582 0.502 1.3714 1.3650 
0.529 6.00 6.00 0.566 0.476 1.3790 1.3815 
0.530 6.00 6.00 0.584 0.456 1.3894 1.3967 
0.531 6.00 6.00 0.531 0.469 1.4086 1.4008 
0.532 6.00 6.00 0.726 0.450 1.4236 1.4142 
0.533 6.00 6.00 0.551 0.415 1.4374 1.4290 
0.534 6.00 6.00 0.444 0.420 1.4507 1.4311 
0.535 6.00 6.00 0.451 0.433 1.4655 1.4453 
0.536 6.00 6.00 0.510 0.411 1.4793 1.4547 
0.537 6.00 6.00 0.457 0.395 1.4773 1.4741 
0.538 6.00 6.00 0.463 0.373 1.4797 1.4795 
0.539 6.00 6.00 0.486 0.381 1.4890 1.4849 
0.540 6.00 6.00 0.420 0.397 1.4914 1.5043 
0.541 6.00 6.00 0.573 0.371 1.5033 1.5090 
0.542 6.00 6.00 0.505 0.356 1.5149 1.5014 
0.543 6.00 6.00 0.406 0.346 1.5308 1.5188 
0.544 6.00 6.00 0.446 0.371 1.5431 1.5209 
0.545 6.00 6.00 0.452 0.372 1.5571 1.5348 
0.546 6.00 6.00 0.586 0.320 1.5595 1.5412 
0.547 6.00 6.00 0.416 0.327 1.5727 1.5442 
0.548 6.00 6.00 0.414 0.344 1.5835 1.5524 
0.549 6.00 6.00 0.373 0.324 1.5822 1.5594 
0.550 6.00 6.00 0.398 0.304 1.5925 1.5576 
0.551 6.00 6.00 0.380 0.279 1.5997 1.5757 
0.552 6.00 6.00 0.328 0.298 1.6000 1.5699 
0.553 6.00 6.00 0.455 0.320 1.6079 1.5826 
0.554 6.00 6.00 0.312 0.315 1.6037 1.5918 
0.555 6.00 6.00 0.359 0.310 1.6100 1.5961 
0.556 6.00 6.00 0.310 0.300 1.6216 1.6035 
0.557 6.00 6.00 0.467 0.291 1.6265 1.5919 
0.558 6.00 6.00 0.283 0.285 1.6329 1.5971 
0.559 6.00 6.00 0.359 0.266 1.6394 1.6110 
0.560 6.00 6.00 0.312 0.264 1.6481 1.6185 
0.561 6.00 6.00 0.390 0.269 1.6502 1.6288 
0.562 6.00 6.00 0.326 0.232 1.6573 1.6231 
0.563 6.00 6.00 0.311 0.230 1.6636 1.6424 
0.564 6.00 6.00 0.330 0.273 1.6632 1.6537 
0.565 6.00 6.00 0.337 0.281 1.6728 1.6617 
0.566 6.00 6.00 0.337 0.268 1.6754 1.6661 
0.567 6.00 6.00 0.266 0.252 1.6785 1.6715 
0.568 6.00 6.00 0.242 0.251 1.6864 1.6748 
0.569 6.00 6.00 0.396 0.251 1.6839 1.6789 
0.570 6.00 6.00 0.388 0.208 1.6834 1.6849 
0.571 6.00 6.00 0.428 0.224 1.6897 1.6893 
0.572 6.00 6.00 0.353 0.239 1.6946 1.6923 
0.573 6.00 6.00 0.254 0.230 1.6999 1.7001 
0.574 6.00 6.00 0.242 0.199 1.7049 1.7036 
0.575 6.00 6.00 0.242 0.225 1.7066 1.7159 
0.576 6.00 6.00 0.296 0.249 1.7074 1.7226 
0.577 6.00 6.00 0.433 0.232 1.7105 1.7230 
0.578 6.00 6.00 0.340 0.228 1.7255 1.7248 
0.579 6.00 6.00 0.401 0.219 1.7314 1.7293 
0.580 6.00 6.00 0.328 0.226 1.7362 1.7305 
0.581 6.00 6.00 0.341 0.191 1.7389 1.7348 
0.582 6.00 6.00 0.270 0.198 1.7418 1.7395 
0.583 6.00 6.00 0.248 0.189 1.7456 1.7336 
0.584 6.00 6.00 0.394 0.221 1.7506 1.7391 
0.585 6.00 6.00 0.409 0.194 1.7443 1.7428 
0.586 6.00 6.00 0.254 0.189 1.7451 1.7489 
0.587 6.00 6.00 0.308 0.215 1.7456 1.7519 
0.588 6.00 6.00 0.220 0.217 1.7456 1.7556 
0.589 6.00 6.00 0.230 0.179 1.7513 1.7662 
0.590 6.00 6.00 0.243 0.167 1.7530 1.7711 
0.591 6.00 6.00 0.383 0.195 1.7551 1.7702 
0.592 6.00 6.00 0.284 0.175 1.7613 1.7719 
0.593 6.00 6.00 0.238 0.177 1.7677 1.7798 
0.594 6.00 6.00 0.286 0.201 1.7698 1.7667 
0.595 6.00 6.00 0.192 0.203 1.7752 1.7727 
0.596 6.00 6.00 0.258 0.161 1.7768 1.7771 
0.597 6.00 6.00 0.174 0.170 1.7700 1.7787 
0.598 6.00 6.00 0.241 0.166 1.7696 1.7819 
0.599 6.00 6.00 0.268 0.206 1.7688 1.7831 
0.600 6.00 6.00 0.176 0.156 1.7767 1.7921 
0.601 6.00 6.00 0.181 0.178 1.7813 1.7982 
0.602 6.00 6.00 0.140 0.164 1.7912 1.7985 
0.603 6.00 6.00 0.158 0.153 1.7917 1.8008 
0.604 6.00 6.00 0.181 0.167 1.7946 1.7940 
0.605 6.00 6.00 0.225 0.150 1.7909 1.7947 
0.606 6.00 6.00 0.212 0.171 1.7995 1.7984 
0.607 6.00 6.00 0.229 0.148 1.7901 1.7999 
0.608 6.00 6.00 0.185 0.160 1.7908 1.8067 
0.609 6.00 6.00 0.189 0.180 1.7928 1.8176 
0.610 6.00 6.00 0.276 0.173 1.7930 1.8177 
0.611 6.00 6.00 0.360 0.165 1.7982 1.8175 
0.612 6.00 6.00 0.257 0.160 1.8091 1.8216 
0.613 6.00 6.00 0.212 0.164 1.8121 1.8105 
0.614 6.00 6.00 0.254 0.137 1.8122 1.8128 
0.615 6.00 6.00 0.364 0.148 1.8141 1.8133 
0.616 6.00 6.00 0.271 0.160 1.8062 1.8129 
0.617 6.00 6.00 0.291 0.165 1.8079 1.8264 
0.618 6.00 6.00 0.203 0.146 1.8078 1.8290 
0.619 6.00 6.00 0.181 0.138 1.8088 1.8317 
0.620 6.00 6.00 0.302 0.163 1.8034 1.8312 
0.621 6.00 6.00 0.211 0.151 1.8016 1.8256 
0.622 6.00 6.00 0.219 0.154 1.8039 1.8278 
0.623 6.00 6.00 0.154 0.152 1.8079 1.8272 
0.624 6.00 6.00 0.182 0.153 1.8091 1.8295 
0.625 6.00 6.00 0.361 0.141 1.7915 1.8403 
0.626 6.00 6.00 0.207 0.156 1.8029 1.8403 
0.627 6.00 6.00 0.188 0.164 1.8028 1.8419 
0.628 6.00 6.00 0.219 0.141 1.8102 1.8461 
0.629 6.00 6.00 0.188 0.133 1.8116 1.8390 
0.630 6.00 6.00 0.199 0.148 1.8255 1.8403 
0.631 6.00 6.00 0.174 0.175 1.8331 1.8402 
0.632 6.00 6.00 0.183 0.151 1.8288 1.8417 
0.633 6.00 6.00 0.220 0.135 1.7938 1.8552 
0.634 6.00 6.00 0.169 0.142 1.8289 1.8502 
0.635 6.00 6.00 0.162 0.133 1.8337 1.8507 
0.636 6.00 6.00 0.317 0.146 1.8307 1.8396 
0.637 6.00 6.00 0.211 0.152 1.8414 1.8389 
0.638 6.00 6.00 0.174 0.164 1.8418 1.8434 
0.639 6.00 6.00 0.172 0.137 1.8391 1.8441 
0.640 6.00 6.00 0.128 0.136 1.8378 1.8549 
0.641 6.00 6.00 0.224 0.156 1.8258 1.8585 
0.642 6.00 6.00 0.353 0.144 1.8223 1.8546 
0.643 6.00 6.00 0.243 0.127 1.8183 1.8551 
0.644 6.00 6.00 0.207 0.130 1.8211 1.8479 
0.645 6.00 6.00 0.189 0.145 1.8300 1.8499 
0.646 6.00 6.00 0.147 0.126 1.8299 1.8501 
0.647 6.00 6.00 0.223 0.118 1.8309 1.8596 
0.648 6.00 6.00 0.209 0.144 1.8326 1.8591 
0.649 6.00 6.00 0.325 0.125 1.8239 1.8631 
0.650 6.00 6.00 0.198 0.109 1.8237 1.8641 
0.651 6.00 6.00 0.188 0.121 1.8253 1.8582 
0.652 6.00 6.00 0.081 0.151 1.8286 1.8564 
0.653 6.00 6.00 0.123 0.114 1.8386 1.8556 
0.654 6.00 6.00 0.151 0.114 1.8425 1.8688 
0.655 6.00 6.00 0.233 0.143 1.8435 1.8626 
0.656 6.00 6.00 0.195 0.121 1.8464 1.8623 
0.657 6.00 6.00 0.170 0.126 1.8372 1.8541 
0.658 6.00 6.00 0.174 0.124 1.8361 1.8517 
0.659 6.00 6.00 0.170 0.140 1.8400 1.8513 
0.660 6.00 6.00 0.177 0.118 1.8407 1.8589 
0.661 6.00 6.00 0.129 0.115 1.8471 1.8712 
0.662 6.00 6.00 0.165 0.110 1.8458 1.8626 
0.663 6.00 6.00 0.299 0.118 1.8461 1.8691 
0.664 6.00 6.00 0.251 0.110 1.8390 1.8508 
0.665 6.00 6.00 0.154 0.143 1.8446 1.8640 
0.666 6.00 6.00 0.162 0.123 1.8434 1.8615 
0.667 6.00 6.00 0.135 0.103 1.8489 1.8645 
0.668 6.00 6.00 0.193 0.119 1.8554 1.8653 
0.669 6.00 6.00 0.190 0.146 1.8562 1.8715 
0.670 6.00 6.00 0.295 0.115 1.8554 1.8754 
0.671 6.00 6.00 0.148 0.097 1.8446 1.8652 
0.672 6.00 6.00 0.157 0.111 1.8443 1.8683 
0.673 6.00 6.00 0.191 0.141 1.8440 1.8675 
0.674 6.00 6.00 0.181 0.126 1.8433 1.8768 
0.675 6.00 6.00 0.174 0.109 1.8561 1.8808 
0.676 6.00 6.00 0.272 0.126 1.8581 1.8745 
0.677 6.00 6.00 0.183 0.101 1.8599 1.8774 
0.678 6.00 6.00 0.181 0.097 1.8575 1.8668 
0.679 6.00 6.00 0.258 0.129 1.8483 1.8667 
0.680 6.00 6.00 0.116 0.122 1.8504 1.8697 
0.681 6.00 6.00 0.160 0.118 1.8464 1.8827 
0.682 6.00 6.00 0.173 0.116 1.8504 1.8817 
0.683 6.00 6.00 0.189 0.134 1.8515 1.8812 
0.684 6.00 6.00 0.181 0.122 1.8483 1.8750 
0.685 6.00 6.00 0.233 0.117 1.8465 1.8752 
0.686 6.00 6.00 0.177 0.123 1.8458 1.8669 
0.687 6.00 6.00 0.166 0.118 1.8462 1.8820 
0.688 6.00 6.00 0.147 0.103 1.8501 1.8816 
0.689 6.00 6.00 0.268 0.095 1.8575 1.8807 
0.690 6.00 6.00 0.271 0.143 1.8570 1.8733 
0.691 6.00 6.00 0.200 0.118 1.8583 1.8748 
0.692 6.00 6.00 0.139 0.099 1.8558 1.8781 
0.693 6.00 6.00 0.295 0.139 1.8422 1.8771 
0.694 6.00 6.00 0.269 0.138 1.8447 1.8885 
0.695 6.00 6.00 0.169 0.118 1.8446 1.8864 
0.696 6.00 6.00 0.141 0.097 1.8561 1.8873 
0.697 6.00 6.00 0.155 0.117 1.8589 1.8744 
0.698 6.00 6.00 0.125 0.110 1.8597 1.8756 
0.699 6.00 6.00 0.137 0.107 1.8573 1.8752 
0.700 6.00 6.00 0.190 0.137 1.8489 1.8823 
0.701 6.00 6.00 0.217 0.116 1.8503 1.8855 
0.702 6.00 6.00 0.132 0.110 1.8531 1.8885 
0.703 6.00 6.00 0.140 0.116 1.8515 1.8791 
0.704 6.00 6.00 0.125 0.135 1.8585 1.8794 
0.705 6.00 6.00 0.146 0.108 1.8570 1.8773 
0.706 6.00 6.00 0.142 0.097 1.8545 1.8920 
0.707 6.00 6.00 0.151 0.108 1.8534 1.8862 
0.708 6.00 6.00 0.177 0.107 1.8546 1.8862 
0.709 6.00 6.00 0.143 0.105 1.8572 1.8701 
0.710 6.00 6.00 0.116 0.109 1.8541 1.8753 
0.711 6.00 6.00 0.155 0.119 1.8641 1.8707 
0.712 6.00 6.00 0.227 0.106 1.8631 1.8911 
0.713 6.00 6.00 0.182 0.107 1.8623 1.8932 
0.714 6.00 6.00 0.255 0.133 1.8509 1.8903 
0.715 6.00 6.00 0.158 0.125 1.8519 1.8897 
0.716 6.00 6.00 0.170 0.121 1.8508 1.8825 
0.717 6.00 6.00 0.178 0.120 1.8639 1.8749 
0.718 6.00 6.00 0.257 0.129 1.8662 1.8802 
0.719 6.00 6.00 0.217 0.120 1.8670 1.8911 
0.720 6.00 6.00 0.193 0.110 1.8658 1.8870 
0.721 6.00 6.00 0.193 0.128 1.8537 1.8860 
0.722 6.00 6.00 0.187 0.101 1.8565 1.8794 
0.723 6.00 6.00 0.098 0.095 1.8581 1.8821 
0.724 6.00 6.00 0.182 0.117 1.8657 1.8821 
0.725 6.00 6.00 0.231 0.126 1.8632 1.8920 
0.726 6.00 6.00 0.210 0.124 1.8618 1.8903 
0.727 6.00 6.00 0.144 0.099 1.8639 1.8925 
0.728 6.00 6.00 0.117 0.128 1.8577 1.8752 
0.729 6.00 6.00 0.181 0.091 1.8585 1.8788 
0.730 6.00 6.00 0.124 0.096 1.8614 1.8763 
0.731 6.00 6.00 0.132 0.104 1.8684 1.8836 
0.732 6.00 6.00 0.139 0.103 1.8656 1.8856 
0.733 6.00 6.00 0.185 0.107 1.8633 1.8896 
0.734 6.00 6.00 0.110 0.051 1.8546 1.8793 
0.735 6.00 6.00 0.152 0.118 1.8468 1.8788 
0.736 6.00 6.00 0.317 0.118 1.8501 1.8740 
0.737 6.00 6.00 0.318 0.107 1.8488 1.8916 
0.738 6.00 6.00 0.202 0.120 1.8645 1.8858 
0.739 6.00 6.00 0.145 0.105 1.8641 1.8867 
0.740 6.00 6.00 0.131 0.107 1.8665 1.8895 
0.741 6.00 6.00 0.319 0.110 1.8548 1.8753 
0.742 6.00 6.00 0.118 0.126 1.8544 1.8791 
0.743 6.00 6.00 0.174 0.100 1.8563 1.8815 
0.744 6.00 6.00 0.116 0.096 1.8572 1.8925 
0.745 6.00 6.00 0.176 0.139 1.8633 1.8901 
0.746 6.00 6.00 0.119 0.122 1.8644 1.8896 
0.747 6.00 6.00 0.202 0.114 1.8629 1.8832 
0.748 6.00 6.00 0.192 0.092 1.8504 1.8712 
0.749 6.00 6.00 0.168 0.102 1.8589 1.8797 
0.750 6.00 6.00 0.115 0.149 1.8593 1.8926 
0.751 6.00 6.00 0.180 0.128 1.8624 1.8903 
0.752 6.00 6.00 0.151 0.144 1.8726 1.8892 
0.753 6.00 6.00 0.168 0.116 1.8609 1.8804 
0.754 6.00 6.00 0.168 0.100 1.8698 1.8832 
0.755 6.00 6.00 0.134 0.103 1.8560 1.8778 
0.756 6.00 6.00 0.221 0.129 1.8571 1.8946 
0.757 6.00 6.00 0.310 0.117 1.8570 1.8922 
0.758 6.00 6.00 0.254 0.080 1.8632 1.8886 
0.759 6.00 6.00 0.175 0.100 1.8680 1.8804 
0.760 6.00 6.00 0.181 0.089 1.8696 1.8821 
0.761 6.00 6.00 0.122 0.101 1.8711 1.8771 
0.762 6.00 6.00 0.181 0.101 1.8593 1.8862 
0.763 6.00 6.00 0.316 0.078 1.8579 1.8922 
0.764 6.00 6.00 0.392 0.063 1.8615 1.8947 
0.765 6.00 6.00 0.257 0.085 1.8698 1.8201 
0.766 6.00 6.00 0.189 0.128 1.8683 1.8851 
0.767 6.00 6.00 0.166 0.125 1.8648 1.8823 
0.768 6.00 6.00 0.146 0.152 1.8656 1.8841 
0.769 6.00 6.00 0.189 0.122 1.8567 1.8917 
0.770 6.00 6.00 0.151 0.118 1.8623 1.8899 
0.771 6.00 6.00 0.174 0.122 1.8628 1.8922 
0.772 6.00 6.00 0.123 0.119 1.8635 1.8773 
0.773 6.00 6.00 0.181 0.126 1.8715 1.8761 
0.774 6.00 6.00 0.132 0.091 1.8691 1.8817 
0.775 6.00 6.00 0.163 0.095 1.8599 1.8917 
0.776 6.00 6.00 0.127 0.114 1.8578 1.8904 
0.777 6.00 6.00 0.088 0.127 1.8542 1.8903 
0.778 6.00 6.00 0.130 0.123 1.8575 1.8820 
0.779 6.00 6.00 0.113 0.115 1.8626 1.8728 
0.780 6.00 6.00 0.111 0.110 1.8675 1.8816 
0.781 6.00 6.00 0.294 0.121 1.8690 1.8887 
0.782 6.00 6.00 0.221 0.113 1.8639 1.8910 
0.783 6.00 6.00 0.205 0.120 1.8607 1.8895 
0.784 6.00 6.00 0.091 0.119 1.8615 1.8816 
0.785 6.00 6.00 0.196 0.129 1.8690 1.8799 
0.786 6.00 6.00 0.187 0.118 1.8703 1.8836 
0.787 6.00 6.00 0.303 0.128 1.8610 1.8949 
0.788 6.00 6.00 0.387 0.137 1.8669 1.8921 
0.789 6.00 6.00 0.200 0.127 1.8564 1.8951 
0.790 6.00 6.00 0.164 0.129 1.8564 1.8808 
0.791 6.00 6.00 0.139 0.108 1.8601 1.8824 
0.792 6.00 6.00 0.288 0.120 1.8726 1.8831 
0.793 6.00 6.00 0.217 0.131 1.8722 1.8895 
0.794 6.00 6.00 0.219 0.123 1.8728 1.8926 
0.795 6.00 6.00 0.132 0.124 1.8715 1.8962 
0.796 6.00 6.00 0.172 0.112 1.8631 1.8856 
0.797 6.00 6.00 0.133 0.124 1.8599 1.8860 
0.798 6.00 6.00 0.269 0.116 1.8612 1.8847 
0.799 6.00 6.00 0.223 0.107 1.8682 1.8978 
0.800 6.00 6.00 0.294 0.117 1.8656 1.8932 
0.801 6.00 6.00 0.193 0.109 1.8703 1.8950 
0.802 6.00 6.00 0.102 0.129 1.8645 1.8879 
0.803 6.00 6.00 0.153 0.129 1.8647 1.8818 
0.804 6.00 6.00 0.324 0.126 1.8613 1.8857 
0.805 6.00 6.00 0.166 0.107 1.8654 1.8981 
0.806 6.00 6.00 0.173 0.099 1.8738 1.8980 
0.807 6.00 6.00 0.142 0.131 1.8726 1.8958 
0.808 6.00 6.00 0.183 0.122 1.8702 1.8956 
0.809 6.00 6.00 0.137 0.132 1.8610 1.8902 
0.810 6.00 6.00 0.322 0.114 1.8575 1.8854 
0.811 6.00 6.00 0.193 0.103 1.8627 1.8846 
0.812 6.00 6.00 0.276 0.096 1.8637 1.8996 
0.813 6.00 6.00 0.115 0.063 1.8618 1.8954 
0.814 6.00 6.00 0.170 0.103 1.8540 1.8965 
0.815 6.00 6.00 0.170 0.084 1.8612 1.8860 
0.816 6.00 6.00 0.170 0.100 1.8515 1.8895 
0.817 6.00 6.00 0.101 0.103 1.8533 1.8896 
0.818 6.00 6.00 0.178 0.129 1.8511 1.8911 
0.819 6.00 6.00 0.219 0.124 1.8606 1.8976 
0.820 6.00 6.00 0.353 0.112 1.8591 1.8999 
0.821 6.00 6.00 0.222 0.120 1.8574 1.8853 
0.822 6.00 6.00 0.331 0.095 1.8682 1.8860 
0.823 6.00 6.00 0.202 0.110 1.8643 1.8862 
0.824 6.00 6.00 0.181 0.107 1.8665 1.8940 
0.825 6.00 6.00 0.161 0.106 1.8631 1.8999 
0.826 6.00 6.00 0.259 0.128 1.8749 1.8987 
0.827 6.00 6.00 0.176 0.136 1.8731 1.8902 
0.828 6.00 6.00 0.189 0.143 1.8704 1.8888 
0.829 6.00 6.00 0.289 0.109 1.8159 1.8871 
0.830 6.00 6.00 0.211 0.110 1.8618 1.9034 
0.831 6.00 6.00 0.135 0.112 1.8597 1.8935 
0.832 6.00 6.00 0.198 0.073 1.8631 1.8957 
0.833 6.00 6.00 0.151 0.109 1.8782 1.8862 
0.834 6.00 6.00 0.177 0.106 1.8766 1.8797 
0.835 6.00 6.00 0.196 0.106 1.8756 1.8884 
0.836 6.00 6.00 0.105 0.103 1.8665 1.9000 
0.837 6.00 6.00 0.242 0.117 1.8674 1.8990 
0.838 6.00 6.00 0.208 0.146 1.8680 1.8980 
0.839 6.00 6.00 0.170 0.126 1.8737 1.8904 
0.840 6.00 6.00 0.335 0.125 1.8763 1.8903 
0.841 6.00 6.00 0.357 0.116 1.8695 1.8873 
0.842 6.00 6.00 0.369 0.097 1.8703 1.8976 
0.843 6.00 6.00 0.276 0.103 1.8648 1.8997 
0.844 6.00 6.00 0.189 0.110 1.8669 1.8962 
0.845 6.00 6.00 0.204 0.129 1.8637 1.8871 
0.846 6.00 6.00 0.130 0.090 1.8683 1.8869 
0.847 6.00 6.00 0.165 0.073 1.8656 1.8904 
0.848 6.00 6.00 0.147 0.115 1.8652 1.8963 
0.849 6.00 6.00 0.166 0.115 1.8549 1.8947 
0.850 6.00 6.00 0.183 0.116 1.8553 1.8983 
0.851 6.00 6.00 0.175 0.110 1.8495 1.8896 
0.852 6.00 6.00 0.117 0.110 1.8530 1.8867 
0.853 6.00 6.00 0.211 0.072 1.8672 1.8867 
0.854 6.00 6.00 0.119 0.101 1.8690 1.8975 
0.855 6.00 6.00 0.220 0.084 1.8689 1.8975 
0.856 6.00 6.00 0.226 0.064 1.8583 1.9000 
0.857 6.00 6.00 0.143 0.089 1.8572 1.8899 
0.858 6.00 6.00 0.180 0.143 1.8611 1.8894 
0.859 6.00 6.00 0.213 0.137 1.8626 1.8905 
0.860 6.00 6.00 0.154 0.114 1.8707 1.8899 
0.861 6.00 6.00 0.203 0.101 1.8688 1.9034 
0.862 6.00 6.00 0.212 0.118 1.8679 1.8975 
0.863 6.00 6.00 0.187 0.112 1.8596 1.8863 
0.864 6.00 6.00 0.101 0.103 1.8649 1.8831 
0.865 6.00 6.00 0.276 0.103 1.8691 1.8853 
0.866 6.00 6.00 0.188 0.119 1.8759 1.8982 
0.867 6.00 6.00 0.240 0.119 1.8791 1.9003 
0.868 6.00 6.00 0.234 0.116 1.8766 1.8991 
0.869 6.00 6.00 0.227 0.117 1.8678 1.8808 
0.870 6.00 6.00 0.168 0.097 1.8654 1.8886 
0.871 6.00 6.00 0.170 0.094 1.8668 1.8890 
0.872 6.00 6.00 0.151 0.107 1.8643 1.8972 
0.873 6.00 6.00 0.307 0.099 1.8702 1.8976 
0.874 6.00 6.00 0.203 0.118 1.8744 1.8980 
0.875 6.00 6.00 0.165 0.104 1.8770 1.8845 
0.876 6.00 6.00 0.174 0.120 1.8699 1.8861 
0.877 6.00 6.00 0.332 0.093 1.8675 1.8889 
0.878 6.00 6.00 0.147 0.087 1.8685 1.9012 
0.879 6.00 6.00 0.129 0.084 1.8776 1.9021 
0.880 6.00 6.00 0.261 0.113 1.8767 1.8958 
0.881 6.00 6.00 0.326 0.129 1.8744 1.8892 
0.882 6.00 6.00 0.317 0.119 1.8734 1.8871 
0.883 6.00 6.00 0.216 0.118 1.8615 1.8874 
0.884 6.00 6.00 0.147 0.097 1.8668 1.8976 
0.885 6.00 6.00 0.139 0.096 1.8699 1.8960 
0.886 6.00 6.00 0.161 0.121 1.8820 1.8955 
0.887 6.00 6.00 0.292 0.100 1.8790 1.8862 
0.888 6.00 6.00 0.167 0.111 1.8787 1.8891 
0.889 6.00 6.00 0.202 0.129 1.8671 1.8897 
0.890 6.00 6.00 0.209 0.137 1.8703 1.8958 
0.891 6.00 6.00 0.163 0.115 1.8637 1.8999 
0.892 6.00 6.00 0.150 0.109 1.8553 1.8995 
0.893 6.00 6.00 0.297 0.124 1.8602 1.8861 
0.894 6.00 6.00 0.219 0.095 1.8585 1.8868 
0.895 6.00 6.00 0.189 0.105 1.8630 1.8855 
0.896 6.00 6.00 0.066 0.099 1.8560 1.8938 
0.897 6.00 6.00 0.113 0.102 1.8591 1.8953 
0.898 6.00 6.00 0.162 0.085 1.8592 1.8996 
0.899 6.00 6.00 0.226 0.092 1.8650 1.8908 
0.900 6.00 6.00 0.219 0.129 1.8672 1.8894 
0.901 6.00 6.00 0.320 0.110 1.8668 1.8851 
0.902 6.00 6.00 0.145 0.111 1.8686 1.9008 
0.903 6.00 6.00 0.191 0.129 1.8594 1.8954 
0.904 6.00 6.00 0.139 0.090 1.8580 1.8952 
0.905 6.00 6.00 0.241 0.110 1.8659 1.8995 
0.906 6.00 6.00 0.202 0.118 1.8760 1.8831 
0.907 6.00 6.00 0.158 0.120 1.8800 1.8876 
0.908 6.00 6.00 0.219 0.096 1.8768 1.8976 
0.909 6.00 6.00 0.128 0.093 1.8631 1.8995 
0.910 6.00 6.00 0.171 0.129 1.8670 1.8969 
0.911 6.00 6.00 0.204 0.111 1.8652 1.8969 
0.912 6.00 6.00 0.163 0.101 1.8668 1.8892 
0.913 6.00 6.00 0.227 0.136 1.8761 1.8856 
0.914 6.00 6.00 0.155 0.124 1.8679 1.8865 
0.915 6.00 6.00 0.134 0.095 1.8704 1.8969 
0.916 6.00 6.00 0.036 0.046 1.8680 1.8941 
0.917 6.00 6.00 0.148 0.103 1.8691 1.8959 
0.918 6.00 6.00 0.100 0.090 1.8739 1.8866 
0.919 6.00 6.00 0.180 0.102 1.8742 1.8895 
0.920 6.00 6.00 0.201 0.129 1.8761 1.8883 
0.921 6.00 6.00 0.126 0.141 1.8777 1.8996 
0.922 6.00 6.00 0.151 0.129 1.8543 1.8935 
0.923 6.00 6.00 0.175 0.097 1.8670 1.8987 
0.924 6.00 6.00 0.132 0.127 1.8630 1.8873 
0.925 6.00 6.00 0.197 0.099 1.8631 1.8871 
0.926 6.00 6.00 0.158 0.118 1.8731 1.8850 
0.927 6.00 6.00 0.121 0.145 1.8753 1.8932 
0.928 6.00 6.00 0.215 0.111 1.8747 1.8999 
0.929 6.00 6.00 0.214 0.114 1.8607 1.8988 
0.930 6.00 6.00 0.145 0.110 1.8575 1.8887 
0.931 6.00 6.00 0.178 0.126 1.8599 1.8821 
0.932 6.00 6.00 0.095 0.109 1.8670 1.8868 
0.933 6.00 6.00 0.120 0.107 1.8661 1.9004 
0.934 6.00 6.00 0.185 0.123 1.8638 1.8940 
0.935 6.00 6.00 0.292 0.100 1.8623 1.8946 
0.936 6.00 6.00 0.243 0.092 1.8536 1.8855 
0.937 6.00 6.00 0.155 0.112 1.8596 1.8836 
0.938 6.00 6.00 0.319 0.103 1.8612 1.8866 
0.939 6.00 6.00 0.227 0.096 1.8653 1.8979 
0.940 6.00 6.00 0.185 0.087 1.8721 1.8967 
0.941 6.00 6.00 0.119 0.142 1.8723 1.8955 
0.942 6.00 6.00 0.316 0.130 1.8719 1.8853 
0.943 6.00 6.00 0.209 0.114 1.8600 1.8879 
0.944 6.00 6.00 0.113 0.117 1.8607 1.8847 
0.945 6.00 6.00 0.312 0.101 1.8593 1.8956 
0.946 6.00 6.00 0.293 0.086 1.8690 1.8956 
0.947 6.00 6.00 0.317 0.085 1.8719 1.8921 
0.948 6.00 6.00 0.334 0.106 1.8753 1.8844 
0.949 6.00 6.00 0.227 0.094 1.8676 1.8848 
0.950 6.00 6.00 0.197 0.085 1.8662 1.8885 
0.951 6.00 6.00 0.183 0.118 1.8665 1.8988 
0.952 6.00 6.00 0.199 0.121 1.8675 1.8968 
0.953 6.00 6.00 0.143 0.107 1.8763 1.8940 
0.954 6.00 6.00 0.145 0.088 1.8730 1.8820 
0.955 6.00 6.00 0.155 0.106 1.8729 1.8841 
0.956 6.00 6.00 0.102 0.107 1.8629 1.8848 
0.957 6.00 6.00 0.150 0.099 1.8620 1.8934 
0.958 6.00 6.00 0.097 0.115 1.8704 1.8918 
0.959 6.00 6.00 0.091 0.062 1.8807 1.8962 
0.960 6.00 6.00 0.148 -0.019 1.8786 1.8811 
0.961 6.00 6.00 0.147 0.078 1.8770 1.8868 
0.962 6.00 6.00 0.176 0.119 1.7922 1.8863 
0.963 6.00 6.00 0.137 0.099 1.8685 1.8946 
0.964 6.00 6.00 0.163 0.110 1.8674 1.8975 
0.965 6.00 6.00 0.288 0.111 1.8653 1.8916 
0.966 6.00 6.00 0.227 0.118 1.8725 1.8833 
0.967 6.00 6.00 0.227 0.109 1.8685 1.8817 
0.968 6.00 6.00 0.198 0.125 1.8733 1.8759 
0.969 6.00 6.00 0.344 0.096 1.8702 1.8846 
0.970 6.00 6.00 0.179 0.087 1.8719 1.8958 
0.971 6.00 6.00 0.172 0.062 1.8700 1.8958 
0.972 6.00 6.00 0.246 0.130 1.8774 1.8927 
0.973 6.00 6.00 0.222 0.132 1.8789 1.8849 
0.974 6.00 6.00 0.094 0.113 1.8702 1.8859 
0.975 6.00 6.00 0.236 0.123 1.8757 1.8820 
0.976 6.00 6.00 0.176 0.131 1.8656 1.8901 
0.977 6.00 6.00 0.155 0.126 1.8643 1.8939 
0.978 6.00 6.00 0.202 0.104 1.8664 1.8883 
0.979 6.00 6.00 0.235 0.121 1.8783 1.8821 
0.980 6.00 6.00 0.203 0.093 1.8709 1.8841 
0.981 6.00 6.00 0.196 0.083 1.8721 1.8851 
0.982 6.00 6.00 0.176 0.101 1.8608 1.8954 
0.983 6.00 6.00 0.164 0.111 1.8599 1.8917 
0.984 6.00 6.00 0.198 0.088 1.8634 1.8916 
0.985 6.00 6.00 0.209 0.097 1.8624 1.8835 
0.986 6.00 6.00 0.239 0.106 1.8709 1.8793 
0.987 6.00 6.00 0.140 0.099 1.8662 1.8815 
0.988 6.00 6.00 0.158 0.094 1.8658 1.8904 
0.989 6.00 6.00 0.244 0.118 1.8620 1.8892 
0.990 6.00 6.00 0.220 0.103 1.8635 1.8929 
0.991 6.00 6.00 0.147 0.098 1.8686 1.8841 
0.992 6.00 6.00 0.147 0.109 1.8730 1.8838 
0.993 6.00 6.00 0.250 0.136 1.8717 1.8823 
0.994 6.00 6.00 0.212 0.119 1.8738 1.8916 
0.995 6.00 6.00 0.193 0.101 1.8696 1.8974 
0.996 6.00 6.00 0.158 0.118 1.8631 1.8886 
0.997 6.00 6.00 0.228 0.122 1.8598 1.8789 
0.998 6.00 6.00 0.162 0.107 1.8601 1.8812 
0.999 6.00 6.00 0.110 0.133 1.8685 1.8786 
1.000 6.00 6.00 0.058 0.118 1.8758 1.8916 
1.001 6.00 6.00 0.094 0.104 1.8774 1.8938 
1.002 6.00 6.00 0.124 0.074 1.8658 1.8930 
1.003 0.00 0.00 0.260 0.118 1.8644 1.8297 
1.004 0.00 0.00 -0.074 0.008 1.8656 1.8796 
1.005 0.00 0.00 -0.675 -0.415 1.8471 1.8645 
1.006 0.00 0.00 -0.936 -0.909 1.8188 1.8279 
1.007 0.00 0.00 -1.200 -1.097 1.7767 1.7972 
1.008 0.00 0.00 -1.134 -1.124 1.7331 1.7553 
1.009 0.00 0.00 -1.254 -1.173 1.6444 1.7120 
1.010 0.00 0.00 -1.129 -1.241 1.6323 1.6665 
1.011 0.00 0.00 -1.239 -1.234 1.5951 1.6139 
1.012 0.00 0.00 -1.113 -1.135 1.5554 1.5682 
1.013 0.00 0.00 -1.200 -1.091 1.5028 1.5242 
1.014 0.00 0.00 -1.062 -1.135 1.4666 1.4808 
1.015 0.00 0.00 -1.129 -1.109 1.4250 1.4380 
1.016 0.00 0.00 -0.988 -1.196 1.3884 1.3964 
1.017 0.00 0.00 -1.022 -1.053 1.3444 1.3571 
1.018 0.00 0.00 -1.058 -1.097 1.3097 1.3229 
1.019 0.00 0.00 -0.954 -1.044 1.2813 1.2858 
1.020 0.00 0.00 -1.046 -1.032 1.2289 1.2479 
1.021 0.00 0.00 -0.906 -0.998 1.1950 1.2100 
1.022 0.00 0.00 -0.910 -0.887 1.1741 1.1849 
1.023 0.00 0.00 -0.994 -0.952 1.1360 1.1402 
1.024 0.00 0.00 -0.839 -1.005 1.1058 1.1072 
1.025 0.00 0.00 -0.870 -0.902 1.0716 1.0834 
1.026 0.00 0.00 -0.944 -0.909 1.0272 1.0447 
1.027 0.00 0.00 -0.793 -0.833 1.0025 1.0161 
1.028 0.00 0.00 -0.785 -0.734 0.9789 0.9869 
1.029 0.00 0.00 -0.847 -0.792 0.9357 0.9598 
1.030 0.00 0.00 -0.806 -0.841 0.9046 0.9323 
1.031 0.00 0.00 -0.708 -0.741 0.8836 0.9086 
1.032 0.00 0.00 -0.748 -0.738 0.8583 0.8634 
1.033 0.00 0.00 -0.797 -0.778 0.8288 0.8502 
1.034 0.00 0.00 -0.646 -0.755 0.7897 0.8228 
1.035 0.00 0.00 -0.593 -0.631 0.7693 0.7870 
1.036 0.00 0.00 -0.642 -0.641 0.7397 0.7645 
1.037 0.00 0.00 -0.691 -0.687 0.7068 0.7296 
1.038 0.00 0.00 -0.695 -0.715 0.6960 0.7196 
1.039 0.00 0.00 -0.556 -0.636 0.6725 0.7163 
1.040 0.00 0.00 -0.554 -0.614 0.6540 0.7387 
1.041 0.00 0.00 -0.588 -0.667 0.6209 0.7546 
1.042 0.00 0.00 -0.625 -0.700 0.6101 0.7210 
1.043 0.00 0.00 -0.610 -0.590 0.5711 0.7027 
1.044 0.00 0.00 -0.472 -0.524 0.5627 0.6698 
1.045 0.00 0.00 -0.445 -0.577 0.5334 0.6670 
1.046 0.00 0.00 -0.470 -0.626 0.5177 0.6286 
1.047 0.00 0.00 -0.500 -0.631 0.5033 0.6069 
1.048 0.00 0.00 -0.514 -0.594 0.4935 0.5874 
1.049 0.00 0.00 -0.492 -0.472 0.4758 0.5759 
1.050 0.00 0.00 -0.425 -0.448 0.4514 0.5559 
1.051 0.00 0.00 -0.373 -0.499 0.4341 0.5350 
1.052 0.00 0.00 -0.379 -0.527 0.4174 0.5123 
